Range    : 5.000
Accuracy : 0.001
Control file  : C2HD3gr   
Spectrum file : w         

 Searching   4  4  0 near    772.31320
 No   1:   3  3  0       27.70560  reg   739.608 -   749.608
 No   2:   5  5  0       74.60328  reg   692.710 -   702.710
  3  3  0   739.79560 34.8   767.50120    5  5  0   692.89881 44.1   767.50209
  3  3  0   740.29323 83.0   767.99883    5  5  0   693.39627 49.3   767.99955
  3  3  0   740.54108 74.4   768.24668    5  5  0   693.64361 86.4   768.24689
  3  3  0   741.35700 81.4   769.06260    5  5  0   694.45866 51.7   769.06194
  3  3  0   741.41135 87.2   769.11695    5  5  0   694.51359 83.1   769.11687
  3  3  0   742.08699 87.0   769.79259    5  5  0   695.18912 73.1   769.79240
  3  3  0   742.35238 65.9   770.05798    5  5  0   695.45397 87.7   770.05725
  3  3  0   742.46341 75.8   770.16901    5  5  0   695.56574 84.2   770.16902
  3  3  0   745.43805 58.6   773.14365    5  5  0   698.53952 63.5   773.14280
  3  3  0   746.87194 51.0   774.57754    5  5  0   699.97524 56.6   774.57852
  3  3  0   747.36438 27.7   775.06998    5  5  0   700.46763 75.7   775.07091
  3  3  0   748.34817 88.1   776.05377    5  5  0   701.45081 88.7   776.05409
  3  3  0   748.59431 88.6   776.29991    5  5  0   701.69702 77.2   776.30030
  3  3  0   749.19274 89.4   776.89834    5  5  0   702.29581 77.2   776.89909

 Searching   5  4  1 near    779.33487
 No   1:   4  3  1       33.32670  reg   741.008 -   751.008
 No   2:   5  5  1       74.60328  reg   699.732 -   709.732
 No   3:   6  5  1       83.02685  reg   691.308 -   701.308
  4  3  1   741.16271 83.8   774.48941    6  5  1   691.46313 33.0   774.48998
  4  3  1   741.17430 79.6   774.50100    6  5  1   691.47454 53.6   774.50139
  4  3  1   741.24070 88.0   774.56740    6  5  1   691.54066 89.9   774.56751
  4  3  1   741.41702 67.0   774.74372    6  5  1   691.71634 87.3   774.74319
  4  3  1   741.54393 88.2   774.87063    5  5  1   700.26767 82.8   774.87095
  4  3  1   742.37592 78.3   775.70262    5  5  1   701.09875 90.0   775.70203
  4  3  1   742.50601 88.3   775.83271    6  5  1   692.80579 76.2   775.83264
  4  3  1   743.14609 89.6   776.47279    6  5  1   693.44504 80.9   776.47189
  4  3  1   743.28408 88.8   776.61078    6  5  1   693.58421 87.2   776.61106
  4  3  1   743.86092 60.3   777.18762    5  5  1   702.58499 86.8   777.18827
  4  3  1   744.44397 89.7   777.77067    6  5  1   694.74318 82.1   777.77003
  4  3  1   744.56624 71.1   777.89294    6  5  1   694.86709 89.1   777.89394
  4  3  1   744.63477 82.7   777.96147    6  5  1   694.93508 17.5   777.96193
  4  3  1   744.67877 79.7   778.00547    5  5  1   703.40132 88.1   778.00460
  4  3  1   745.17548 51.7   778.50218    5  5  1   703.89802 49.2   778.50130
  4  3  1   745.26563 77.5   778.59233    6  5  1   695.56574 84.2   778.59259
  4  3  1   745.49635 87.4   778.82305    5  5  1   704.21905 14.7   778.82233
  4  3  1   745.58362 76.1   778.91032    5  5  1   704.30769 86.1   778.91097
  4  3  1   745.70961 75.9   779.03631    6  5  1   696.00971 75.2   779.03656
  4  3  1   746.54271 75.0   779.86941    6  5  1   696.84295 83.9   779.86980
  4  3  1   746.56138 70.5   779.88808    6  5  1   696.86029 49.8   779.88714
  4  3  1   746.87194 51.0   780.19864    5  5  1   705.59564 80.6   780.19892
                                          6  5  1   697.17120 39.3   780.19805
  4  3  1   748.21454 84.3   781.54124    5  5  1   706.93785 74.9   781.54113
  4  3  1   748.62623 88.8   781.95293    5  5  1   707.34930 89.6   781.95258
  4  3  1   748.67504 79.1   782.00174    5  5  1   707.39943 69.5   782.00271
  4  3  1   749.27004 84.0   782.59674    5  5  1   707.99325 80.6   782.59653
  4  3  1   749.48032 67.0   782.80702    6  5  1   699.78114 86.8   782.80799
  4  3  1   749.78177 76.9   783.10847    6  5  1   700.08161 87.4   783.10846
  4  3  1   749.96731 88.3   783.29401    6  5  1   700.26767 82.8   783.29452
  4  3  1   750.28074 90.0   783.60744    5  5  1   709.00495 84.2   783.60823
  4  3  1   750.62712 89.5   783.95382    5  5  1   709.35116 65.0   783.95444
  4  3  1   750.84233 86.9   784.16903    5  5  1   709.56589 81.4   784.16917
  5  5  1   699.82088 59.7   774.42416    6  5  1   691.39633 78.3   774.42318
  5  5  1   699.96983 88.9   774.57311    6  5  1   691.54531 83.7   774.57216
  5  5  1   702.06682 77.0   776.67010    6  5  1   693.64361 86.4   776.67046
  5  5  1   702.70821 78.3   777.31149    6  5  1   694.28462 89.4   777.31147
  5  5  1   702.93735 82.4   777.54063    6  5  1   694.51359 83.1   777.54044
  5  5  1   703.28490 89.8   777.88818    6  5  1   694.86132 66.0   777.88817
  5  5  1   704.69676 82.5   779.30004    6  5  1   696.27316 78.2   779.30001
  5  5  1   704.87046 72.9   779.47374    6  5  1   696.44650 89.8   779.47335
  5  5  1   705.48790 88.8   780.09118    6  5  1   697.06467 85.8   780.09152
  5  5  1   705.59564 80.6   780.19892    6  5  1   697.17120 39.3   780.19805
  5  5  1   705.81025 83.6   780.41353    6  5  1   697.38612 80.1   780.41297
  5  5  1   708.52433 85.2   783.12761    6  5  1   700.10139 80.0   783.12824
  5  5  1   709.03264 89.6   783.63592    6  5  1   700.60962 86.1   783.63647
  5  5  1   709.45753 72.2   784.06081    6  5  1   701.03347 57.1   784.06032

 Searching   6  4  2 near    787.76837
 No   1:   5  3  2       40.36522  reg   742.403 -   752.403
 No   2:   6  5  2       83.02684  reg   699.742 -   709.742
 No   3:   7  5  2       92.86055  reg   689.908 -   699.908
  5  3  2   743.05571 90.0   783.42093    7  5  2   690.56042 86.0   783.42097
  5  3  2   743.45298 88.1   783.81820    7  5  2   690.95741 79.2   783.81796
  5  3  2   743.47396 89.3   783.83918    6  5  2   700.81268 36.0   783.83952
  5  3  2   743.54478 72.9   783.91000    7  5  2   691.05007 82.2   783.91062
  5  3  2   743.75001 45.2   784.11523    7  5  2   691.25490 53.6   784.11545
  5  3  2   743.93501 67.7   784.30023    7  5  2   691.43899 88.3   784.29954
  5  3  2   744.35380 85.4   784.71902    7  5  2   691.85757 81.1   784.71812
  5  3  2   744.39645 29.4   784.76167    7  5  2   691.90164 89.5   784.76219
  5  3  2   744.50995 88.3   784.87517    6  5  2   701.84751 78.0   784.87435
  5  3  2   744.56624 71.1   784.93146    7  5  2   692.07093 88.9   784.93148
  5  3  2   744.59627 62.0   784.96149    6  5  2   701.93478 86.8   784.96162
  5  3  2   744.72756 88.8   785.09278    6  5  2   702.06682 77.0   785.09366
  5  3  2   745.26563 77.5   785.63085    7  5  2   692.77079 85.6   785.63134
  5  3  2   745.67895 87.2   786.04417    7  5  2   693.18431 89.6   786.04486
  5  3  2   745.89217 80.6   786.25739    7  5  2   693.39627 49.3   786.25682
  5  3  2   746.60520 71.5   786.97042    6  5  2   703.94367 84.4   786.97051
  5  3  2   746.97748 89.6   787.34270    6  5  2   704.31682 84.1   787.34366
  5  3  2   747.11201 46.3   787.47723    6  5  2   704.44967 84.9   787.47651
  5  3  2   748.20912 85.9   788.57434    7  5  2   695.71355 81.6   788.57410
  5  3  2   748.27408 88.2   788.63930    6  5  2   705.61294 85.3   788.63978
  5  3  2   748.30497 56.1   788.67019    7  5  2   695.81042 43.4   788.67097
  5  3  2   748.45304 44.9   788.81826    7  5  2   695.95845 85.6   788.81900
  5  3  2   748.62623 88.8   788.99145    6  5  2   705.96504 73.7   788.99188
  5  3  2   749.08803 89.1   789.45325    6  5  2   706.42736 79.5   789.45420
  5  3  2   749.15062 89.1   789.51584    7  5  2   696.65557 90.0   789.51612
  5  3  2   749.31247 71.0   789.67769    6  5  2   706.65161 85.6   789.67845
                                          7  5  2   696.81765 49.0   789.67820
  5  3  2   749.71055 78.1   790.07577    7  5  2   697.21508 66.0   790.07563
  5  3  2   749.73498 63.9   790.10020    6  5  2   707.07383 23.3   790.10067
  5  3  2   749.88737 73.7   790.25259    6  5  2   707.22645 71.2   790.25329
  5  3  2   751.12073 89.3   791.48595    7  5  2   698.62613 82.0   791.48668
  5  3  2   751.27370 15.8   791.63892    7  5  2   698.77831 83.3   791.63886
  5  3  2   751.32150 87.5   791.68672    6  5  2   708.65900 87.6   791.68584
  5  3  2   751.34249 58.3   791.70771    7  5  2   698.84620 35.7   791.70675
  5  3  2   751.91594 31.1   792.28116    6  5  2   709.25475 73.4   792.28159
  5  3  2   751.96595 89.8   792.33117    7  5  2   699.47066 88.1   792.33121
  5  3  2   752.01868 88.7   792.38390    6  5  2   709.35669 85.4   792.38353
  5  3  2   752.25798 86.8   792.62320    6  5  2   709.59674 88.5   792.62358
  6  5  2   700.87949 70.1   783.90633    7  5  2   691.04563 79.0   783.90618
  6  5  2   700.97699 88.2   784.00383    7  5  2   691.14286 67.7   784.00341
  6  5  2   702.60545 89.9   785.63229    7  5  2   692.77079 85.6   785.63134
  6  5  2   702.94747 87.9   785.97431    7  5  2   693.11466 60.2   785.97521
  6  5  2   702.99004 51.5   786.01688    7  5  2   693.15650 86.7   786.01705
  6  5  2   703.62533 66.4   786.65217    7  5  2   693.79164 60.0   786.65219
  6  5  2   704.22423 85.0   787.25107    7  5  2   694.39060 71.6   787.25115
  6  5  2   704.34642 46.9   787.37326    7  5  2   694.51359 83.1   787.37414
  6  5  2   704.87046 72.9   787.89730    7  5  2   695.03699 68.8   787.89754
  6  5  2   705.64445 78.9   788.67129    7  5  2   695.81042 43.4   788.67097
  6  5  2   706.07617 69.8   789.10301    7  5  2   696.24208 74.1   789.10263
  6  5  2   706.55745 85.2   789.58429    7  5  2   696.72366 78.5   789.58421
  6  5  2   706.65161 85.6   789.67845    7  5  2   696.81765 49.0   789.67820
  6  5  2   707.07383 23.3   790.10067    7  5  2   697.24086 89.1   790.10141
  6  5  2   707.48940 62.5   790.51624    7  5  2   697.65525 86.2   790.51580
  6  5  2   707.49391 64.9   790.52075    7  5  2   697.66091 19.1   790.52146
  6  5  2   708.25720 87.1   791.28404    7  5  2   698.42316 88.6   791.28371
  6  5  2   708.34050 51.9   791.36734    7  5  2   698.50615 65.4   791.36670

 Searching   7  4  3 near    797.61807
 No   1:   6  3  3       48.83140  reg   743.787 -   753.787
 No   2:   7  5  3       92.86053  reg   699.758 -   709.758
 No   3:   8  5  3      104.10727  reg   688.511 -   698.511
  6  3  3   743.86092 60.3   792.69232    7  5  3   699.83205 86.3   792.69258
  6  3  3   744.44397 89.7   793.27537    8  5  3   689.16749 87.8   793.27476
  6  3  3   744.45322 78.1   793.28462    8  5  3   689.17689 88.8   793.28416
  6  3  3   744.54924 76.0   793.38064    8  5  3   689.27426 88.9   793.38153
  6  3  3   744.56624 71.1   793.39764    7  5  3   700.53800 86.0   793.39853
  6  3  3   744.90510 72.5   793.73650    8  5  3   689.62921 23.7   793.73648
  6  3  3   745.18119 85.1   794.01259    7  5  3   701.15287 75.5   794.01340
  6  3  3   745.69130 38.8   794.52270    8  5  3   690.41549 83.8   794.52276
  6  3  3   745.73478 88.8   794.56618    8  5  3   690.45823 69.5   794.56550
  6  3  3   746.36476 85.5   795.19616    7  5  3   702.33539 89.9   795.19592
  6  3  3   746.67200 84.1   795.50340    8  5  3   691.39633 78.3   795.50360
  6  3  3   746.87194 51.0   795.70334    7  5  3   702.84224 85.2   795.70277
  6  3  3   746.97748 89.6   795.80888    7  5  3   702.94747 87.9   795.80800
  6  3  3   747.23576 56.5   796.06716    7  5  3   703.20727 76.5   796.06780
  6  3  3   748.20912 85.9   797.04052    7  5  3   704.17931 35.5   797.03984
  6  3  3   749.63633 50.6   798.46773    7  5  3   705.60763 75.4   798.46816
  6  3  3   749.73498 63.9   798.56638    8  5  3   694.45866 51.7   798.56593
  6  3  3   749.78177 76.9   798.61317    7  5  3   705.75284 22.9   798.61337
  6  3  3   749.99859 87.3   798.82999    8  5  3   694.72265 65.0   798.82992
  6  3  3   750.72936 87.2   799.56076    8  5  3   695.45397 87.7   799.56124
  6  3  3   750.84233 86.9   799.67373    8  5  3   695.56574 84.2   799.67301
  6  3  3   750.98008 87.9   799.81148    8  5  3   695.70400 61.0   799.81127
  6  3  3   751.06998 79.6   799.90138    7  5  3   707.04024 52.6   799.90077
  6  3  3   751.10326 85.4   799.93466    7  5  3   707.07383 23.3   799.93436
  6  3  3   751.23472 88.4   800.06612    8  5  3   695.95845 85.6   800.06572
  6  3  3   751.24513 87.2   800.07653    8  5  3   695.97003 86.7   800.07730
  6  3  3   751.99987 89.4   800.83127    8  5  3   696.72366 78.5   800.83093
  6  3  3   752.04191 89.5   800.87331    8  5  3   696.76599 85.5   800.87326
  6  3  3   752.04751  9.6   800.87891    8  5  3   696.77143 15.6   800.87870
  6  3  3   752.51657 33.7   801.34797    8  5  3   697.24086 89.1   801.34813
  6  3  3   752.84567 89.8   801.67707    8  5  3   697.56991 63.5   801.67718
  6  3  3   752.85063 89.2   801.68203    8  5  3   697.57499 26.3   801.68226
  6  3  3   753.62512  9.1   802.45652    7  5  3   709.59674 88.5   802.45727
  6  3  3   753.63510 77.1   802.46650    8  5  3   698.35966 89.6   802.46693
  6  3  3   753.64004 89.1   802.47144    8  5  3   698.36490 81.6   802.47217
  7  5  3   700.41916 86.0   793.27969    8  5  3   689.17316 89.1   793.28043
  7  5  3   700.52833 86.8   793.38886    8  5  3   689.28086 72.3   793.38813
  7  5  3   700.60962 86.1   793.47015    8  5  3   689.36340 23.4   793.47067
  7  5  3   701.09875 90.0   793.95928    8  5  3   689.85281 84.4   793.96008
  7  5  3   702.20488 74.1   795.06541    8  5  3   690.95741 79.2   795.06468
  7  5  3   703.02779 76.1   795.88832    8  5  3   691.78199 61.5   795.88926
  7  5  3   704.14613 88.0   797.00666    8  5  3   692.89881 44.1   797.00608
  7  5  3   704.21905 14.7   797.07958    8  5  3   692.97180 64.0   797.07907
  7  5  3   704.22423 85.0   797.08476    8  5  3   692.97826 67.3   797.08553
  7  5  3   704.36208 54.2   797.22261    8  5  3   693.11466 60.2   797.22193
  7  5  3   704.57002 38.9   797.43055    8  5  3   693.32349 89.8   797.43076
  7  5  3   705.55180 85.8   798.41233    8  5  3   694.30517 85.2   798.41244
  7  5  3   705.81025 83.6   798.67078    8  5  3   694.56415 81.3   798.67142
  7  5  3   707.48940 62.5   800.34993    8  5  3   696.24208 74.1   800.34935
  7  5  3   707.69303 88.1   800.55356    8  5  3   696.44650 89.8   800.55377
  7  5  3   709.09063 76.0   801.95116    8  5  3   697.84418 87.1   801.95145

 Searching   8  4  4 near    808.88948
 No   1:   7  3  4       58.73950  reg   745.150 -   755.150
 No   2:   8  5  4      104.10718  reg   699.782 -   709.782
 No   3:   9  5  4      116.77037  reg   687.119 -   697.119
  7  3  4   745.35834 87.2   804.09784    8  5  4   699.99061 89.8   804.09779
  7  3  4   745.89217 80.6   804.63167    9  5  4   687.86192 45.7   804.63229
  7  3  4   746.56138 70.5   805.30088    9  5  4   688.53079 89.9   805.30116
  7  3  4   746.78348 88.5   805.52298    9  5  4   688.75173 87.4   805.52210
  7  3  4   747.11201 46.3   805.85151    9  5  4   689.08091 88.1   805.85128
  7  3  4   747.20368 67.6   805.94318    9  5  4   689.17316 89.1   805.94353
  7  3  4   747.28649 87.7   806.02599    9  5  4   689.25467 86.3   806.02504
  7  3  4   747.51974 86.0   806.25924    8  5  4   702.15168 89.6   806.25886
  7  3  4   748.20912 85.9   806.94862    8  5  4   702.84224 85.2   806.94942
  7  3  4   748.30497 56.1   807.04447    8  5  4   702.93735 82.4   807.04453
  7  3  4   748.31500 70.9   807.05450    8  5  4   702.94747 87.9   807.05465
  7  3  4   749.09830 40.5   807.83780    8  5  4   703.73122 60.4   807.83840
  7  3  4   749.42806 85.5   808.16756    9  5  4   691.39633 78.3   808.16670
  7  3  4   749.51428 88.6   808.25378    8  5  4   704.14613 88.0   808.25331
  7  3  4   749.94299 23.5   808.68249    8  5  4   704.57537 69.5   808.68255
                                          9  5  4   691.91222 87.6   808.68259
  7  3  4   750.98008 87.9   809.71958    8  5  4   705.61294 85.3   809.72012
  7  3  4   751.01230 89.5   809.75180    8  5  4   705.64445 78.9   809.75163
  7  3  4   751.12073 89.3   809.86023    8  5  4   705.75284 22.9   809.86002
  7  3  4   751.15376 63.8   809.89326    8  5  4   705.78510 81.6   809.89228
  7  3  4   751.17831 83.3   809.91781    8  5  4   705.81025 83.6   809.91743
  7  3  4   751.53011 33.1   810.26961    8  5  4   706.16169 74.0   810.26887
  7  3  4   751.87787 90.0   810.61737    8  5  4   706.51065 74.7   810.61783
  7  3  4   752.01868 88.7   810.75818    8  5  4   706.65161 85.6   810.75879
  7  3  4   752.04191 89.5   810.78141    8  5  4   706.67522 72.7   810.78240
  7  3  4   752.42067 84.8   811.16017    9  5  4   694.39060 71.6   811.16097
  7  3  4   752.96935 39.9   811.70885    8  5  4   707.60079 34.6   811.70797
  7  3  4   753.51904 85.0   812.25854    9  5  4   695.48796 72.5   812.25833
  7  3  4   753.62512  9.1   812.36462    8  5  4   708.25720 87.1   812.36438
  7  3  4   753.98118 85.8   812.72068    8  5  4   708.61393 80.5   812.72111
  7  3  4   754.03991 90.0   812.77941    9  5  4   696.00971 75.2   812.78008
  7  3  4   754.22723 85.9   812.96673    9  5  4   696.19615 87.6   812.96652
  7  3  4   754.41338 52.6   813.15288    9  5  4   696.38307 89.6   813.15344
  7  3  4   754.48344 79.9   813.22294    9  5  4   696.45170 89.1   813.22207
  7  3  4   754.71974 76.2   813.45924    8  5  4   709.35116 65.0   813.45834
  8  5  4   699.79047 75.6   803.89765    9  5  4   687.12769 85.3   803.89806
  8  5  4   700.92403 68.3   805.03121    9  5  4   688.26044 86.7   805.03081
  8  5  4   700.93173 36.7   805.03891    9  5  4   688.26906 88.5   805.03943
  8  5  4   701.10647 67.5   805.21365    9  5  4   688.44416 66.6   805.21453
  8  5  4   703.57479 49.4   807.68197    9  5  4   690.91259 89.3   807.68296
  8  5  4   704.13102 82.7   808.23820    9  5  4   691.46882 80.2   808.23919
  8  5  4   704.19940 85.3   808.30658    9  5  4   691.53522 79.4   808.30559
  8  5  4   704.20403 89.7   808.31121    9  5  4   691.54066 89.9   808.31103
  8  5  4   704.20891 46.0   808.31609    9  5  4   691.54531 83.7   808.31568
  8  5  4   704.57002 38.9   808.67720    9  5  4   691.90674 41.3   808.67711
  8  5  4   704.57537 69.5   808.68255    9  5  4   691.91222 87.6   808.68259
  8  5  4   704.69676 82.5   808.80394    9  5  4   692.03428 89.3   808.80465
  8  5  4   705.56123 74.1   809.66841    9  5  4   692.89881 44.1   809.66918
  8  5  4   705.77805 78.4   809.88523    9  5  4   693.11466 60.2   809.88503
  8  5  4   706.96748 82.4   811.07466    9  5  4   694.30517 85.2   811.07554
  8  5  4   706.98627 48.6   811.09345    9  5  4   694.32236 62.9   811.09273
  8  5  4   707.22645 71.2   811.33363    9  5  4   694.56415 81.3   811.33452
  8  5  4   709.04213 70.2   813.14931    9  5  4   696.37805 84.9   813.14842

 Searching   9  4  5 near    821.58956
 No   1:   8  3  5       70.10844  reg   746.481 -   756.481
 No   2:   9  5  5      116.77004  reg   699.820 -   709.820
 No   3:  10  5  5      130.85372  reg   685.736 -   695.736
  8  3  5   746.60520 71.5   816.71364   10  5  5   685.86042 89.9   816.71414
  8  3  5   747.08084 90.0   817.18928    9  5  5   700.41916 86.0   817.18920
  8  3  5   747.51974 86.0   817.62818    9  5  5   700.85781 38.1   817.62785
  8  3  5   748.21454 84.3   818.32298    9  5  5   701.55315 63.5   818.32319
  8  3  5   748.77195 89.8   818.88039    9  5  5   702.11021 63.1   818.88025
  8  3  5   749.27560 83.9   819.38404   10  5  5   688.53079 89.9   819.38451
  8  3  5   749.58930 67.3   819.69774    9  5  5   702.92855 84.5   819.69859
  8  3  5   749.61304 76.2   819.72148    9  5  5   702.95216 88.6   819.72220
  8  3  5   749.96731 88.3   820.07575    9  5  5   703.30580 85.7   820.07584
  8  3  5   750.45220 80.9   820.56064   10  5  5   689.70666 86.7   820.56038
  8  3  5   750.96990 83.4   821.07834    9  5  5   704.30769 86.1   821.07773
  8  3  5   751.06998 79.6   821.17842    9  5  5   704.40832 35.5   821.17836
  8  3  5   751.12073 89.3   821.22917   10  5  5   690.37571 70.5   821.22943
  8  3  5   751.15930 70.0   821.26774    9  5  5   704.49812 52.2   821.26816
  8  3  5   751.35811 89.8   821.46655    9  5  5   704.69676 82.5   821.46680
  8  3  5   751.91025 90.0   822.01869   10  5  5   691.16592 78.2   822.01964
  8  3  5   751.91594 31.1   822.02438   10  5  5   691.17099 88.1   822.02471
  8  3  5   751.99987 89.4   822.10831   10  5  5   691.25490 53.6   822.10862
  8  3  5   752.01868 88.7   822.12712   10  5  5   691.27384 53.0   822.12756
  8  3  5   752.04191 89.5   822.15035    9  5  5   705.37961 89.3   822.14965
  8  3  5   752.04751  9.6   822.15595   10  5  5   691.30318 89.4   822.15690
  8  3  5   752.14153 52.2   822.24997   10  5  5   691.39633 78.3   822.25005
  8  3  5   752.20351 83.4   822.31195    9  5  5   705.54266 86.6   822.31270
  8  3  5   752.25798 86.8   822.36642    9  5  5   705.59564 80.6   822.36568
  8  3  5   752.27467 85.6   822.38311    9  5  5   705.61294 85.3   822.38298
  8  3  5   752.27970 87.1   822.38814    9  5  5   705.61887 28.5   822.38891
                                         10  5  5   691.53522 79.4   822.38894
  8  3  5   752.42067 84.8   822.52911    9  5  5   705.75840 86.5   822.52844
  8  3  5   752.46186 78.0   822.57030   10  5  5   691.71634 87.3   822.57006
  8  3  5   752.54182 57.4   822.65026    9  5  5   705.88003 73.8   822.65007
                                         10  5  5   691.79586 67.8   822.64958
  8  3  5   752.81665 86.3   822.92509   10  5  5   692.07093 88.9   822.92465
  8  3  5   753.55085 85.2   823.65929   10  5  5   692.80579 76.2   823.65951
  8  3  5   754.15007 77.8   824.25851    9  5  5   707.48940 62.5   824.25944
  8  3  5   754.24516 88.3   824.35360    9  5  5   707.58440 33.7   824.35444
  8  3  5   754.58605 77.0   824.69449    9  5  5   707.92422 72.6   824.69426
  8  3  5   754.60943 80.9   824.71787    9  5  5   707.94826 87.7   824.71830
  8  3  5   755.78261 76.4   825.89105   10  5  5   695.03699 68.8   825.89071
  8  3  5   755.91945 53.5   826.02789   10  5  5   695.17364 89.1   826.02736
  9  5  5   699.95533 85.6   816.72537   10  5  5   685.87180 86.5   816.72552
  9  5  5   700.26767 82.8   817.03771   10  5  5   686.18365 84.7   817.03737
  9  5  5   701.37277 69.0   818.14281   10  5  5   687.28843 88.9   818.14215
  9  5  5   702.84224 85.2   819.61228   10  5  5   688.75812 79.3   819.61184
  9  5  5   703.28490 89.8   820.05494   10  5  5   689.20159 47.4   820.05531
  9  5  5   704.07293 85.1   820.84297   10  5  5   689.98826 78.3   820.84198
  9  5  5   704.21341 89.3   820.98345   10  5  5   690.13026 74.6   820.98398
  9  5  5   704.31682 84.1   821.08686   10  5  5   690.23378 89.6   821.08750
  9  5  5   704.47515 88.1   821.24519   10  5  5   690.39047 86.7   821.24419
  9  5  5   705.09460 69.3   821.86464   10  5  5   691.01044 63.8   821.86416
  9  5  5   705.55180 85.8   822.32184   10  5  5   691.46882 80.2   822.32254
  9  5  5   705.61887 28.5   822.38891   10  5  5   691.53522 79.4   822.38894
  9  5  5   705.86595 81.4   822.63599   10  5  5   691.78199 61.5   822.63571
  9  5  5   705.88003 73.8   822.65007   10  5  5   691.79586 67.8   822.64958
  9  5  5   708.95663 81.9   825.72667   10  5  5   694.87321 51.2   825.72693
