Range    : 1.000
Accuracy : 0.001
Control file  : C2HD3gr   
Spectrum file : w         

 Searching   3  3  0 near    791.70560
 No   1:   2  2  0       12.78833  reg   777.917 -   779.917
 No   2:   4  4  0       48.31320  reg   742.392 -   744.392

 Searching   4  3  1 near    797.32670
 No   1:   3  2  1       17.02892  reg   779.298 -   781.298
 No   2:   4  4  1       48.31318  reg   748.014 -   750.014
 No   3:   5  4  1       55.33487  reg   740.992 -   742.992
  3  2  1   779.58850 58.6   796.61742    4  4  1   748.30497 56.1   796.61815
  3  2  1   779.77471 77.7   796.80363    4  4  1   748.49027 45.1   796.80345
  3  2  1   780.32215 89.1   797.35107    4  4  1   749.03751 77.5   797.35069
  4  4  1   748.30497 56.1   796.61815    5  4  1   741.28412 89.0   796.61899
  4  4  1   748.56624 80.9   796.87941    5  4  1   741.54393 88.2   796.87880
  4  4  1   748.67504 79.1   796.98822    5  4  1   741.65434 88.5   796.98921
  4  4  1   750.00491 33.8   798.31809    5  4  1   742.98404 76.3   798.31891

 Searching   5  3  2 near    804.36522
 No   1:   4  2  2       22.72108  reg   780.644 -   782.644
 No   2:   5  4  2       55.33476  reg   748.030 -   750.030
 No   3:   6  4  2       63.76837  reg   739.597 -   741.597
  4  2  2   780.79555 77.3   803.51663    5  4  2   748.18098 89.2   803.51574
  4  2  2   781.10466 73.6   803.82574    5  4  2   748.49027 45.1   803.82503
  4  2  2   781.10992 86.0   803.83100    5  4  2   748.49620 89.9   803.83096
  4  2  2   781.20898 88.8   803.93006    5  4  2   748.59431 88.6   803.92907
  4  2  2   781.88847 81.9   804.60955    5  4  2   749.27560 83.9   804.61036
  4  2  2   782.00691 87.0   804.72799    5  4  2   749.39340 58.1   804.72816
  5  4  2   748.30497 56.1   803.63973    6  4  2   739.87130 76.9   803.63967
  5  4  2   748.66982 85.1   804.00458    6  4  2   740.23709 50.9   804.00546
  5  4  2   748.80206 73.7   804.13682    6  4  2   740.36894 86.7   804.13731

 Searching   6  3  3 near    812.83140
 No   1:   5  2  3       29.89272  reg   781.939 -   783.939
 No   2:   6  4  3       63.76783  reg   748.064 -   750.064
 No   3:   7  4  3       73.61808  reg   738.213 -   740.213
  5  2  3   782.00691 87.0   811.89963    7  4  3   738.28214 61.4   811.90022
  5  2  3   782.42620 69.8   812.31892    6  4  3   748.55130 86.4   812.31913
  5  2  3   783.91549 89.9   813.80821    6  4  3   750.04034 46.8   813.80817
  6  4  3   749.24558 19.9   813.01341    7  4  3   739.39627 89.7   813.01435
  6  4  3   749.43718 60.9   813.20501    7  4  3   739.58636 89.7   813.20444
  6  4  3   749.52493 70.1   813.29276    7  4  3   739.67567 76.0   813.29375
  6  4  3   749.71055 78.1   813.47838    7  4  3   739.85960 46.0   813.47768

 Searching   7  3  4 near    822.73950
 No   1:   6  2  4       38.57011  reg   783.169 -   785.169
 No   2:   7  4  4       73.61611  reg   748.123 -   750.123
 No   3:   8  4  4       84.88948  reg   736.850 -   738.850
  6  2  4   783.33440 59.9   821.90451    7  4  4   748.28819 87.8   821.90430
  6  2  4   784.13385 87.5   822.70396    7  4  4   749.08803 89.1   822.70414
  6  2  4   784.80839 87.0   823.37850    8  4  4   738.48806 63.0   823.37754
  7  4  4   748.55130 86.4   822.16741    8  4  4   737.27713 74.1   822.16661
  7  4  4   749.03751 77.5   822.65362    8  4  4   737.76506 60.8   822.65454
  7  4  4   749.56900 73.1   823.18511    8  4  4   738.29552 45.9   823.18500
  7  4  4   749.76756 65.5   823.38367    8  4  4   738.49456 20.7   823.38404
  7  4  4   749.77474 73.8   823.39085    8  4  4   738.50072 88.8   823.39020
  7  4  4   750.04034 46.8   823.65645    8  4  4   738.76660 81.8   823.65608

 Searching   8  3  5 near    834.10844
 No   1:   7  2  5       48.77161  reg   784.337 -   786.337
 No   2:   8  4  5       84.88362  reg   748.225 -   750.225
 No   3:   9  4  5       97.58956  reg   735.519 -   737.519
  7  2  5   784.47288 42.8   833.24449    9  4  5   735.65576 89.8   833.24532
  7  2  5   786.09432 84.6   834.86593    9  4  5   737.27713 74.1   834.86669
  8  4  5   748.21891 89.8   833.10253    9  4  5   735.51352 90.0   833.10308
  8  4  5   748.56125 85.3   833.44487    9  4  5   735.85542 86.0   833.44498
  8  4  5   749.56900 73.1   834.45262    9  4  5   736.86352 77.8   834.45308
  8  4  5   749.63633 50.6   834.51995    9  4  5   736.93079 80.8   834.52035
