Range    : 0.500
Accuracy : 0.001
Control file  : C2HD3gr   
Spectrum file : s         

 Searching   1  1  0 near   1002.63042
 No   1:   0  0  0        0.00000  reg  1002.130 -  1003.130
 No   2:   2  2  0       12.78833  reg   989.342 -   990.342
  0  0  0  1002.58791 51.4  1002.58791    2  2  0   989.79924 89.6  1002.58757

 Searching   2  1  1 near   1005.60191
 No   1:   1  0  1        1.39995  reg  1003.702 -  1004.702
 No   2:   2  2  1       12.77805  reg   992.324 -   993.324
 No   3:   3  2  1       17.02892  reg   988.073 -   989.073
  1  0  1  1003.95575 88.8  1005.35570    3  2  1   988.32656 69.3  1005.35548
  1  0  1  1004.27427 83.6  1005.67422    2  2  1   992.89707 89.3  1005.67512
  1  0  1  1004.51428 57.5  1005.91423    3  2  1   988.88520 55.1  1005.91412
  2  2  1   992.35024 81.3  1005.12829    3  2  1   988.09959 17.1  1005.12851

 Searching   3  1  2 near   1010.05245
 No   1:   2  0  2        4.18956  reg  1005.363 -  1006.363
 No   2:   3  2  2       16.97774  reg   992.575 -   993.575
 No   3:   4  2  2       22.72108  reg   986.831 -   987.831
  2  0  2  1005.36414 66.0  1009.55370    4  2  2   986.83200 72.2  1009.55308
  2  0  2  1005.39254 83.8  1009.58210    4  2  2   986.86086 89.9  1009.58194
  2  0  2  1005.44320 85.4  1009.63276    3  2  2   992.65424 76.2  1009.63198
  2  0  2  1005.56917 79.6  1009.75873    4  2  2   987.03742 29.4  1009.75850
  2  0  2  1005.70371 69.6  1009.89327    4  2  2   987.17240 85.4  1009.89348
  2  0  2  1005.95046 87.2  1010.14002    4  2  2   987.41867 80.4  1010.13975
  2  0  2  1005.96791 89.1  1010.15747    3  2  2   993.17877 86.1  1010.15651
  3  2  2   993.02452 77.9  1010.00226    4  2  2   987.28127 75.0  1010.00235

 Searching   4  1  3 near   1015.97345
 No   1:   3  0  3        8.34844  reg  1007.125 -  1008.125
 No   2:   4  2  3       22.56924  reg   992.904 -   993.904
 No   3:   5  2  3       29.89272  reg   985.581 -   986.581
  3  0  3  1007.35914 62.1  1015.70758    4  2  3   993.13857 79.2  1015.70781
  3  0  3  1007.43089 84.7  1015.77933    5  2  3   985.88609 84.0  1015.77881
  3  0  3  1007.69183 87.6  1016.04027    5  2  3   986.14739 89.7  1016.04011
  4  2  3   993.05853 47.1  1015.62777    5  2  3   985.73590 78.3  1015.62862
  4  2  3   993.34004 81.1  1015.90928    5  2  3   986.01640 85.8  1015.90912
  4  2  3   993.43884 86.4  1016.00808    5  2  3   986.11502 74.7  1016.00774
  4  2  3   993.60678 89.7  1016.17602    5  2  3   986.28422 81.0  1016.17694

 Searching   5  1  4 near   1023.35254
 No   1:   4  0  4       13.84736  reg  1009.005 -  1010.005
 No   2:   5  2  4       29.54562  reg   993.307 -   994.307
 No   3:   6  2  4       38.57011  reg   984.282 -   985.282
  4  0  4  1009.01360 88.0  1022.86095    5  2  4   993.31436 71.1  1022.85998
  4  0  4  1009.45634 83.6  1023.30370    6  2  4   984.73389 87.9  1023.30400
  4  0  4  1009.74890 83.6  1023.59626    6  2  4   985.02714 75.0  1023.59725

 Searching   6  1  5 near   1032.17281
 No   1:   5  0  5       20.65134  reg  1011.021 -  1012.021
 No   2:   6  2  5       37.89832  reg   993.774 -   994.774
 No   3:   7  2  5       48.77161  reg   982.901 -   983.901
  5  0  5  1011.07875 83.8  1031.73009    7  2  5   982.95880 87.2  1031.73041
  5  0  5  1011.16932 84.6  1031.82066    6  2  5   993.92179 87.2  1031.82011
  5  0  5  1011.41719 89.3  1032.06853    7  2  5   983.29652 63.7  1032.06813
  5  0  5  1011.70030 73.0  1032.35164    6  2  5   994.45255 77.3  1032.35087
  5  0  5  1011.86374 80.1  1032.51508    7  2  5   983.74405 87.0  1032.51566
