Range    : 0.500
Accuracy : 0.001
Control file  : C2HD3gr   
Spectrum file : s         

 Searching   5  5  0 near   1073.60328
 No   1:   4  4  0       48.31320  reg  1024.790 -  1025.790
 No   2:   6  6  0      106.57171  reg   966.532 -   967.532

 Searching   6  5  1 near   1082.02685
 No   1:   5  4  1       55.33487  reg  1026.192 -  1027.192
 No   2:   6  6  1      106.57171  reg   974.955 -   975.955
 No   3:   7  6  1      116.39707  reg   965.130 -   966.130
  5  4  1  1026.72677 61.4  1082.06164    6  6  1   975.48975 12.1  1082.06146
  6  6  1   975.68311 86.9  1082.25482    7  6  1   965.85686 89.4  1082.25393

 Searching   7  5  2 near   1091.86055
 No   1:   6  4  2       63.76837  reg  1027.592 -  1028.592
 No   2:   7  6  2      116.39707  reg   974.963 -   975.963
 No   3:   8  6  2      127.63152  reg   963.729 -   964.729
  6  4  2  1027.56928 79.4  1091.33765    8  6  2   963.70529 89.1  1091.33681
  6  4  2  1027.83257 80.0  1091.60094    8  6  2   963.96910 83.6  1091.60062
  6  4  2  1027.89230 89.7  1091.66067    8  6  2   964.02893 89.8  1091.66045
  6  4  2  1028.13100 64.1  1091.89937    8  6  2   964.26687 75.8  1091.89839
  6  4  2  1028.63133 86.5  1092.39970    8  6  2   964.76731 58.7  1092.39883
  7  6  2   974.97058 84.2  1091.36765    8  6  2   963.73575 50.7  1091.36727
  7  6  2   975.21428 71.9  1091.61135    8  6  2   963.97985 84.0  1091.61137
  7  6  2   975.37907 47.6  1091.77614    8  6  2   964.14536 83.0  1091.77688
  7  6  2   975.42709 87.3  1091.82416    8  6  2   964.19241 76.4  1091.82393
  7  6  2   975.57518 87.2  1091.97225    8  6  2   964.34100 69.1  1091.97252

 Searching   8  5  3 near   1103.10727
 No   1:   7  4  3       73.61808  reg  1028.989 -  1029.989
 No   2:   8  6  3      127.63152  reg   974.976 -   975.976
 No   3:   9  6  3      140.27725  reg   962.330 -   963.330
  7  4  3  1028.98474 61.7  1102.60282    8  6  3   974.97058 84.2  1102.60210
  7  4  3  1029.15213 72.3  1102.77021    9  6  3   962.49391 67.6  1102.77116
  7  4  3  1029.25093 46.2  1102.86901    8  6  3   975.23761 88.2  1102.86913
                                          9  6  3   962.59257 89.0  1102.86982
  7  4  3  1029.91837 54.9  1103.53645    9  6  3   963.25827 19.6  1103.53552
  8  6  3   975.23761 88.2  1102.86913    9  6  3   962.59257 89.0  1102.86982
  8  6  3   975.57518 87.2  1103.20670    9  6  3   962.92993 86.5  1103.20718
  8  6  3   975.90334 88.0  1103.53486    9  6  3   963.25827 19.6  1103.53552

 Searching   9  5  4 near   1115.77037
 No   1:   8  4  4       84.88948  reg  1030.381 -  1031.381
 No   2:   9  6  4      140.27724  reg   974.993 -   975.993
 No   3:  10  6  4      154.33674  reg   960.934 -   961.934
  8  4  4  1030.46202 75.4  1115.35150   10  6  4   961.01529 60.0  1115.35203
  8  4  4  1030.58447 82.6  1115.47395   10  6  4   961.13789 21.1  1115.47463
  8  4  4  1031.14083 85.2  1116.03031    9  6  4   975.75402 88.6  1116.03126
  9  6  4   975.06594 85.4  1115.34318   10  6  4   961.00700 89.2  1115.34374
  9  6  4   975.40518 40.9  1115.68242   10  6  4   961.34628 11.0  1115.68302
  9  6  4   975.57518 87.2  1115.85242   10  6  4   961.51585 49.3  1115.85259

 Searching  10  5  5 near   1129.85372
 No   1:   9  4  5       97.58956  reg  1031.764 -  1032.764
 No   2:  10  6  5      154.33672  reg   975.017 -   976.017
 No   3:  11  6  5      169.81275  reg   959.541 -   960.541
  9  4  5  1032.04592 70.0  1129.63548   10  6  5   975.29852 85.7  1129.63524
  9  4  5  1032.14610 82.9  1129.73566   11  6  5   959.92390 73.6  1129.73665
  9  4  5  1032.33508 80.9  1129.92464   10  6  5   975.58819 83.8  1129.92491
  9  4  5  1032.75657 80.7  1130.34613   10  6  5   976.00917 62.6  1130.34589
 10  6  5   975.23326 89.7  1129.56998   11  6  5   959.75745 83.0  1129.57020
