Range    : 1.000
Accuracy : 0.001
Control file  : C2HD3gr   
Spectrum file : w         

 Searching   1  1  0 near    767.63042
 No   1:   0  0  0        0.00000  reg   766.630 -   768.630
 No   2:   2  2  0       12.78833  reg   753.842 -   755.842
  0  0  0   767.07651 77.5   767.07651    2  2  0   754.28807 61.8   767.07640

 Searching   2  1  1 near    770.60191
 No   1:   1  0  1        1.39995  reg   768.202 -   770.202
 No   2:   2  2  1       12.77805  reg   756.824 -   758.824
 No   3:   3  2  1       17.02892  reg   752.573 -   754.573
  1  0  1   768.25855 75.9   769.65850    2  2  1   756.87994 87.5   769.65799
  1  0  1   769.07704 74.2   770.47699    2  2  1   757.69834 44.7   770.47639
  1  0  1   769.58976 87.7   770.98971    2  2  1   758.21190 84.7   770.98995
  2  2  1   757.65189 66.7   770.42994    3  2  1   753.40125 74.0   770.43017
  2  2  1   758.63807 35.7   771.41612    3  2  1   754.38721 66.1   771.41613
  2  2  1   758.83676 87.7   771.61481    3  2  1   754.58605 77.0   771.61497

 Searching   3  1  2 near    775.05245
 No   1:   2  0  2        4.18956  reg   769.863 -   771.863
 No   2:   3  2  2       16.97774  reg   757.075 -   759.075
 No   3:   4  2  2       22.72108  reg   751.331 -   753.331
  2  0  2   770.37264 66.5   774.56220    3  2  2   757.58480 62.3   774.56254
  2  0  2   770.40086 87.4   774.59042    3  2  2   757.61267 86.9   774.59041
  2  0  2   770.89245 30.6   775.08201    4  2  2   752.36056 88.3   775.08164
  2  0  2   771.05609 70.4   775.24565    3  2  2   758.26759 89.7   775.24533
  2  0  2   771.54250 78.7   775.73206    3  2  2   758.75392 60.3   775.73166
  2  0  2   771.78555 83.1   775.97511    3  2  2   758.99801 89.4   775.97575
  3  2  2   757.27937 70.4   774.25711    4  2  2   751.53566 86.9   774.25674
  3  2  2   757.54642 85.7   774.52416    4  2  2   751.80285 65.6   774.52393

 Searching   4  1  3 near    780.97345
 No   1:   3  0  3        8.34844  reg   771.625 -   773.625
 No   2:   4  2  3       22.56924  reg   757.404 -   759.404
 No   3:   5  2  3       29.89272  reg   750.081 -   752.081
  3  0  3   771.87318 88.2   780.22162    4  2  3   757.65189 66.7   780.22113
  3  0  3   773.60411 87.6   781.95255    4  2  3   759.38429 85.8   781.95353
  4  2  3   758.59149 42.2   781.16073    5  2  3   751.26793 87.3   781.16065
  4  2  3   759.31490 65.9   781.88414    5  2  3   751.99051 80.9   781.88323
  4  2  3   759.34288 75.1   781.91212    5  2  3   752.01868 88.7   781.91140

 Searching   5  1  4 near    788.35254
 No   1:   4  0  4       13.84736  reg   773.505 -   775.505
 No   2:   5  2  4       29.54562  reg   757.807 -   759.807
 No   3:   6  2  4       38.57011  reg   748.782 -   750.782
  4  0  4   774.23717 84.7   788.08453    6  2  4   749.51428 88.6   788.08439
  4  0  4   774.38953 34.1   788.23689    5  2  4   758.69036 73.3   788.23598
  4  0  4   774.45741 86.6   788.30477    6  2  4   749.73498 63.9   788.30509
  4  0  4   774.56513 45.7   788.41249    5  2  4   758.86660 56.3   788.41222
  4  0  4   774.60939 81.8   788.45675    6  2  4   749.88737 73.7   788.45748
  4  0  4   775.04585 45.8   788.89321    5  2  4   759.34831 89.1   788.89393
  4  0  4   775.08984 86.1   788.93720    5  2  4   759.39076 71.8   788.93638
  5  2  4   758.63807 35.7   788.18369    6  2  4   749.61304 76.2   788.18315
  5  2  4   759.51983 79.1   789.06545    6  2  4   750.49614 79.2   789.06625

 Searching   6  1  5 near    797.17282
 No   1:   5  0  5       20.65134  reg   775.521 -   777.521
 No   2:   6  2  5       37.89832  reg   758.274 -   760.274
 No   3:   7  2  5       48.77161  reg   747.401 -   749.401
  5  0  5   776.32982 86.4   796.98116    7  2  5   748.20912 85.9   796.98073
  5  0  5   776.46851 10.3   797.11985    7  2  5   748.34817 88.1   797.11978
  5  0  5   776.63525 61.7   797.28659    7  2  5   748.51526 78.6   797.28687
  5  0  5   776.76663 78.2   797.41797    6  2  5   759.51983 79.1   797.41815
  5  0  5   777.05112 71.1   797.70246    6  2  5   759.80389 69.5   797.70221
  5  0  5   777.17801 82.3   797.82935    6  2  5   759.93102 87.4   797.82934
  6  2  5   758.69036 73.3   796.58868    7  2  5   747.81610 86.6   796.58771
  6  2  5   759.36334 62.5   797.26166    7  2  5   748.49027 45.1   797.26188
  6  2  5   759.42371 80.8   797.32203    7  2  5   748.55130 86.4   797.32291
  6  2  5   760.11877 72.9   798.01709    7  2  5   749.24558 19.9   798.01719
