Range    : 1.000
Accuracy : 0.001
Control file  : C2HD3gr   
Spectrum file : w         

 Searching   2  2  1 near    776.77805
 No   1:   1  1  1        3.45881  reg   772.319 -   774.319
 No   2:   2  1  1        6.60191  reg   769.176 -   771.176
 No   3:   3  3  1       27.70521  reg   748.073 -   750.073
  1  1  1   773.30420 88.7   776.76301    2  1  1   770.16132 77.8   776.76323
  2  1  1   769.69820 77.0   776.30011    3  3  1   748.59431 88.6   776.29952
  2  1  1   769.72954 87.3   776.33145    3  3  1   748.62623 88.8   776.33144
  2  1  1   770.26775 67.7   776.86966    3  3  1   749.16496 88.9   776.87017
  2  1  1   770.37264 66.5   776.97455    3  3  1   749.27004 84.0   776.97525

 Searching   3  2  2 near    780.97774
 No   1:   2  1  2        6.08707  reg   773.891 -   775.891
 No   2:   3  1  2       11.05245  reg   768.925 -   770.925
 No   3:   4  3  2       33.32401  reg   746.654 -   748.654
  2  1  2   774.24276 89.8   780.32983    3  1  2   769.27799 65.6   780.33044
  2  1  2   774.25832 86.2   780.34539    3  1  2   769.29381 81.9   780.34626
  2  1  2   774.47298 39.0   780.56005    4  3  2   747.23576 56.5   780.55977

 Searching   4  2  3 near    786.56924
 No   1:   3  1  3       10.02318  reg   775.546 -   777.546
 No   2:   4  1  3       16.97345  reg   768.596 -   770.596
 No   3:   5  3  3       40.35448  reg   745.215 -   747.215
  3  1  3   775.61411 79.4   785.63729    4  1  3   768.66312 83.5   785.63657
  3  1  3   776.76663 78.2   786.78981    5  3  3   746.43479 87.5   786.78927
  3  1  3   776.84982 72.8   786.87300    4  1  3   769.89924 76.7   786.87269
                                          5  3  3   746.51938 88.4   786.87386
  3  1  3   777.09264 82.8   787.11582    5  3  3   746.76110 85.7   787.11558
  4  1  3   768.56816 88.3   785.54161    5  3  3   745.18673 41.3   785.54121
  4  1  3   770.16502 83.4   787.13847    5  3  3   746.78348 88.5   787.13796

 Searching   5  2  4 near    793.54562
 No   1:   4  1  4       15.26012  reg   777.285 -   779.285
 No   2:   5  1  4       24.35254  reg   768.193 -   770.193
 No   3:   6  3  4       48.79940  reg   743.746 -   745.746
  4  1  4   778.21724 80.9   793.47736    6  3  4   744.67877 79.7   793.47817
  4  1  4   778.45008 69.4   793.71020    5  1  4   769.35695 85.7   793.70949
  4  1  4   778.72617 84.5   793.98629    6  3  4   745.18673 41.3   793.98613
  4  1  4   778.80412 80.2   794.06424    6  3  4   745.26563 77.5   794.06503
  4  1  4   779.25735 89.4   794.51747    5  1  4   770.16502 83.4   794.51756
  5  1  4   768.90041 87.1   793.25295    6  3  4   744.45322 78.1   793.25262
  5  1  4   769.03746 89.1   793.39000    6  3  4   744.59015 84.9   793.38955
  5  1  4   769.49834 53.5   793.85088    6  3  4   745.05059 69.4   793.84999

 Searching   6  2  5 near    801.89832
 No   1:   5  1  5       21.78938  reg   779.109 -   781.109
 No   2:   6  1  5       33.17281  reg   767.726 -   769.726
 No   3:   7  3  5       58.66042  reg   742.238 -   744.238
  5  1  5   779.23778 33.4   801.02716    7  3  5   742.36645 81.8   801.02687
  5  1  5   779.88710 84.7   801.67648    7  3  5   743.01551 85.5   801.67593
  5  1  5   780.78186 86.2   802.57124    6  1  5   769.39889 48.3   802.57170
  6  1  5   769.72954 87.3   802.90235    7  3  5   744.24116 88.1   802.90158

 Searching   7  2  6 near    811.61722
 No   1:   6  1  6       29.60161  reg   781.016 -   783.016
 No   2:   7  1  6       43.41200  reg   767.205 -   769.205
 No   3:   8  3  6       69.93746  reg   740.680 -   742.680
  6  1  6   781.08931 54.5   810.69092    7  1  6   767.27808 79.9   810.69008
  6  1  6   781.55791 77.2   811.15952    8  3  6   741.22158 87.7   811.15904
  6  1  6   781.57639 73.0   811.17800    8  3  6   741.24070 88.0   811.17816
  6  1  6   782.10470 90.0   811.70631    7  1  6   768.29405 80.3   811.70605
  7  1  6   768.90041 87.1   812.31241    8  3  6   742.37592 78.3   812.31338
