Range    : 0.500
Accuracy : 0.001
Control file  : C2HD3gr   
Spectrum file : s         

 Searching   3  3  1 near   1026.70521
 No   1:   2  2  1       12.77805  reg  1013.427 -  1014.427
 No   2:   3  2  1       17.02892  reg  1009.176 -  1010.176
 No   3:   4  4  1       48.31318  reg   977.892 -   978.892
  2  2  1  1014.00046 81.9  1026.77851    3  2  1  1009.74890 83.6  1026.77782

 Searching   4  3  2 near   1032.32401
 No   1:   3  2  2       16.97774  reg  1014.846 -  1015.846
 No   2:   4  2  2       22.72108  reg  1009.103 -  1010.103
 No   3:   5  4  2       55.33476  reg   976.489 -   977.489
  3  2  2  1015.10732 83.7  1032.08506    5  4  2   976.74940 77.9  1032.08416
  3  2  2  1015.18623 85.3  1032.16397    5  4  2   976.82948 78.5  1032.16424
  3  2  2  1015.36395 84.2  1032.34169    4  2  2  1009.62106 69.6  1032.34214
  3  2  2  1015.62011 74.3  1032.59785    5  4  2   977.26299 64.0  1032.59775
  3  2  2  1015.64318 80.6  1032.62092    4  2  2  1009.89924 75.8  1032.62032
  4  2  2  1009.99750 77.7  1032.71858    5  4  2   977.38370 69.6  1032.71846
  4  2  2  1010.01339 77.2  1032.73447    5  4  2   977.39989 49.9  1032.73465

 Searching   5  3  3 near   1039.35448
 No   1:   4  2  3       22.56924  reg  1016.285 -  1017.285
 No   2:   5  2  3       29.89272  reg  1008.962 -  1009.962
 No   3:   6  4  3       63.76783  reg   975.087 -   976.087
  4  2  3  1016.41202 87.6  1038.98126    6  4  3   975.21428 71.9  1038.98211
  4  2  3  1016.95249 75.8  1039.52173    6  4  3   975.75402 88.6  1039.52185

 Searching   6  3  4 near   1047.79940
 No   1:   5  2  4       29.54562  reg  1017.754 -  1018.754
 No   2:   6  2  4       38.57011  reg  1008.729 -  1009.729
 No   3:   7  4  4       73.61611  reg   973.683 -   974.683
  5  2  4  1017.92349 79.5  1047.46911    7  4  4   973.85275 87.0  1047.46886
  5  2  4  1018.15731 65.9  1047.70293    7  4  4   974.08769 52.2  1047.70380
  5  2  4  1018.29432 75.1  1047.83994    6  2  4  1009.27044 85.7  1047.84055
  6  2  4  1008.96727 66.1  1047.53738    7  4  4   973.92127 88.8  1047.53738
  6  2  4  1009.08045 88.7  1047.65056    7  4  4   974.03413 85.1  1047.65024
  6  2  4  1009.37250 67.3  1047.94261    7  4  4   974.32712 89.5  1047.94323

 Searching   7  3  5 near   1057.66042
 No   1:   6  2  5       37.89832  reg  1019.262 -  1020.262
 No   2:   7  2  5       48.77161  reg  1008.389 -  1009.389
 No   3:   8  4  5       84.88362  reg   972.277 -   973.277
  6  2  5  1019.39063 82.1  1057.28895    8  4  5   972.40535 80.8  1057.28897
  6  2  5  1019.60464 71.0  1057.50296    8  4  5   972.61845 76.6  1057.50207
  6  2  5  1019.68964 75.4  1057.58796    7  2  5  1008.81549 89.0  1057.58710
  6  2  5  1019.77761 89.9  1057.67593    8  4  5   972.79189 43.9  1057.67551
  6  2  5  1020.04214 86.9  1057.94046    8  4  5   973.05649 83.1  1057.94011
  6  2  5  1020.08400 65.4  1057.98232    7  2  5  1009.21058 86.0  1057.98219
  6  2  5  1020.24669 69.1  1058.14501    7  2  5  1009.37250 67.3  1058.14411

 Searching   8  3  6 near   1068.93746
 No   1:   7  2  6       47.61722  reg  1020.820 -  1021.820
 No   2:   8  2  6       60.50331  reg  1007.934 -  1008.934
 No   3:   9  4  6       97.57445  reg   970.863 -   971.863
  7  2  6  1020.93035 65.2  1068.54757    8  2  6  1008.04501 87.3  1068.54832
  7  2  6  1021.05016 68.0  1068.66738    8  2  6  1008.16420 81.5  1068.66751
  7  2  6  1021.17322 69.3  1068.79044    8  2  6  1008.28644 75.0  1068.78975
  7  2  6  1021.22820 79.7  1068.84542    9  4  6   971.27039 87.4  1068.84484
  7  2  6  1021.28611 88.4  1068.90333    9  4  6   971.32924 76.6  1068.90369
  7  2  6  1021.53666 63.3  1069.15388    9  4  6   971.58012 75.6  1069.15457
  7  2  6  1021.67348 83.4  1069.29070    9  4  6   971.71673 21.8  1069.29118
  8  2  6  1008.29763 89.6  1068.80094    9  4  6   971.22686 78.9  1068.80131
